Folder: GenXPS_public/genXPS/data/experimental_data/cellulose trinitrate (CTN)

File: CTN.csv
Binding Energy,CPS
700,0
699.4,0
698.8,0
698.2,0
697.6,0
697,0
696.4,0
695.8,0
695.2,0
694.6,0
694,0
693.4,0
692.8,0
692.2,0
691.6,0
691,0
690.4,0
689.8,0
689.2,0
688.6,0
688,0
687.4,0
686.8,0
686.2,0
685.6,0
685,0
684.4,0
683.8,0
683.2,0
682.6,0
682,0
539.5,0
538.9,0
538.3,0
537.7,-0.000182069
537.1,0.004641162
536.5,0.0305968
535.9,0.149495
535.3,0.491953
534.7,0.921758
534.1,0.959732
533.5,0.66392
532.9,0.246565
532.3,0.0524198
531.7,0.015399
531.1,0.0055495
530.5,0
529.9,0
529.3,0
528.7,0
528.1,0
527.5,0
526.9,0
526.3,0
525.7,0
525.1,0
524.5,0
523.9,0
523.3,0
522.7,0
522.1,0
521.5,0
520.9,0
520.3,0
409.8,0.008396686
409.2,0.0340947
408.6,0.14465
408,0.183031
407.4,0.043325
406.8,0.005965332
406.2,0.004898355
405.6,0.004485076
405,0.0062641
404.4,0.003844508
403.8,0.003089336
403.2,0.00138252
402.6,0
402,0
401.4,0
400.8,0
400.2,0
399.6,0
399,0
398.4,0
397.8,0
397.2,0
396.6,0
396,0
395.4,0
394.8,0
394.2,0
393.6,0
393,0
392.4,0
299.9,0
299.3,0
298.7,0
298.1,0
297.5,0
296.9,0
296.3,0
295.7,0
295.1,0
294.5,0
293.9,0
293.3,0
292.7,0
292.1,0
291.5,0.000523049
290.9,0.001983794
290.3,0.006114306
289.7,0.025225
289.1,0.0780584
288.5,0.122862
287.9,0.26767
287.3,0.305911
286.7,0.0888721
286.1,0.0146826
285.5,0.0176756
284.9,0.0175808
284.3,0.005246748
283.7,-0.000438151
283.1,0
282.5,0
281.9,0
281.3,0
280.7,0
280.1,0
279.5,0
278.9,0
278.3,0
277.7,0
277.1,0
276.5,0
275.9,0
275.3,0
209.8,0
209.2,0
208.6,0
208,0
207.4,0
206.8,0
206.2,0
205.6,0
205,0
204.4,0
203.8,0
203.2,0
202.6,0
202,0
201.4,0
200.8,0
200.2,0
199.6,0
199,0
198.4,0
197.8,0
197.2,0
196.6,0
196,0
89.5,0
88.9,0
88.3,0
87.7,0
87.1,0
86.5,0
85.9,0
85.3,0
84.7,0
84.1,0
83.5,0
82.9,0
82.3,0
81.7,0
81.1,0
80.5,0
79.9,0
79.3,0
78.7,0
78.1,0
77.5,0
76.9,0
76.3,0
75.7,0
75.1,0
74.5,0
73.9,0
73.3,0
72.7,0
72.1,0
71.5,0
70.9,0
70.3,0
69.7,0
69.1,0
68.5,0
67.9,0
67.3,0
66.7,0
66.1,0
65.5,0
64.9,0
64.3,0
63.7,0
63.1,0
62.5,0
61.9,0
61.3,0
60.7,0
60.1,0
29.6,0.00560021
29,0.007723387
28.4,0.009070541
27.8,0.009811672
27.2,0.009422016
26.6,0.008875736
26,0.00713918
25.4,0.004654846
24.8,0.002736476
24.2,0.001458475
23.6,2.43E-05
23,-0.000296507
22.4,0.000121422
21.8,-0.000199556
21.2,0.00066183
20.6,0.001492318
20,0.002120661
19.4,0.001663072
18.8,0.001029478
18.2,0.001396342
17.6,0.001708129
17,0.002698194
16.4,0.004236197
15.8,0.005200378
15.2,0.007579336
14.6,0.006828888
14,0.004549252
13.4,0.005386878
12.8,0.006930215
12.2,0.003531754
11.6,0.001748026
11,0.001785479
10.4,0.002036546
9.8,0.002442294
9.2,0.002366887
8.6,0.002700664
8,0.003395106
7.4,0.004936702
6.8,0.005441057
6.2,0.004346554
5.6,0.002695668
5,0.002029963
4.4,0.000894931
3.8,0.00018056
3.2,-4.49109E-05
2.6,1.50706E-06
2,6.66507E-05
1.4,0
0.8,0
0.2,0
-0.4,0
-1,0
-1.6,0
-2.2,0
-2.8,0
-3.4,0
-4,0
-4.6,0
-5,0