Folder: GenXPS_public/genXPS/data/experimental_data/Nylon 12 (N12)

File: N12.csv
Binding Energy,CPS
700,0
699.4,0
698.8,0
698.2,0
697.6,0
697,0
696.4,0
695.8,0
695.2,0
694.6,0
694,0
693.4,0
692.8,0
692.2,0
691.6,0
691,0
690.4,0
689.8,0
689.2,0
688.6,0
688,0
687.4,0
686.8,0
686.2,0
685.6,0
685,0
684.4,0
683.8,0
683.2,0
682.6,0
682,0
539.5,0
538.9,0
538.3,0
537.7,0
537.1,0
536.5,0
535.9,0
535.3,0
534.7,-0.003373055
534.1,0.000131762
533.5,0.004823381
532.9,0.009957596
532.3,0.0486971
531.7,0.156282
531.1,0.167878
530.5,0.0315627
529.9,0.002217596
529.3,-0.000522198
528.7,0
528.1,0
527.5,0
526.9,0
526.3,0
525.7,0
525.1,0
524.5,0
523.9,0
523.3,0
522.7,0
522.1,0
521.5,0
520.9,0
520.3,0
409.8,0
409.2,0
408.6,0
408,0
407.4,0
406.8,0
406.2,0
405.6,0
405,0
404.4,0
403.8,0
403.2,-0.001245941
402.6,0.001072191
402,7.85E-05
401.4,0.005045743
400.8,0.0217453
400.2,0.0963013
399.6,0.118193
399,0.0292873
398.4,0.003927187
397.8,-0.000425565
397.2,0.000662357
396.6,0
396,0
395.4,0
394.8,0
394.2,0
393.6,0
393,0
392.4,0
299.9,0
299.3,0
298.7,0
298.1,0
297.5,0
296.9,0
296.3,0
295.7,0
295.1,0
294.5,0
293.9,0
293.3,0
292.7,0
292.1,0
291.5,0
290.9,0
290.3,0
289.7,0
289.1,0.007854801
288.5,0.0449584
287.9,0.0928775
287.3,0.0255818
286.7,0.0492058
286.1,0.186276
285.5,0.621073
284.9,0.9099415
284.3,0.121209
283.7,0.007820512
283.1,0.000583454
282.5,0
281.9,0
281.3,0
280.7,0
280.1,0
279.5,0
278.9,0
278.3,0
277.7,0
277.1,0
276.5,0
275.9,0
275.3,0
209.8,0
209.2,0
208.6,0
208,0
207.4,0
206.8,0
206.2,0
205.6,0
205,0
204.4,0
203.8,0
203.2,0
202.6,0
202,0
201.4,0
200.8,0
200.2,0
199.6,0
199,0
198.4,0
197.8,0
197.2,0
196.6,0
196,0
89.5,0
88.9,0
88.3,0
87.7,0
87.1,0
86.5,0
85.9,0
85.3,0
84.7,0
84.1,0
83.5,0
82.9,0
82.3,0
81.7,0
81.1,0
80.5,0
79.9,0
79.3,0
78.7,0
78.1,0
77.5,0
76.9,0
76.3,0
75.7,0
75.1,0
74.5,0
73.9,0
73.3,0
72.7,0
72.1,0
71.5,0
70.9,0
70.3,0
69.7,0
69.1,0
68.5,0
67.9,0
67.3,0
66.7,0
66.1,0
65.5,0
64.9,0
64.3,0
63.7,0
63.1,0
62.5,0
61.9,0
61.3,0
60.7,0
60.1,0
29.6,-3.28E-05
29,8.86E-06
28.4,0.000312384
27.8,0.000629168
27.2,0.001271016
26.6,0.001486259
26,0.001759387
25.4,0.001074746
24.8,0.001003034
24.2,0.00080836
23.6,0.001430112
23,0.001033786
22.4,0.001267385
21.8,0.000797774
21.2,0.000757098
20.6,0.002203876
20,0.003294908
19.4,0.00406109
18.8,0.003794054
18.2,0.003308475
17.6,0.003352427
17,0.002708758
16.4,0.002537396
15.8,0.002418751
15.2,0.003151212
14.6,0.003694097
14,0.005771782
13.4,0.005069576
12.8,0.001963227
12.2,0.000632568
11.6,0.000893833
11,0.001142236
10.4,0.001448183
9.8,0.001525045
9.2,0.00165078
8.6,0.001322613
8,0.001346945
7.4,0.0015947
6.8,0.001433979
6.2,0.001432589
5.6,0.001031921
5,0.001032957
4.4,0.001441
3.8,0.001211772
3.2,0.00016817
2.6,-5.41028E-05
2,-4.04499E-05
1.4,0
0.8,0
0.2,0
-0.4,0
-1,0
-1.6,0
-2.2,0
-2.8,0
-3.4,0
-4,0
-4.6,0
-5,0