Folder: GenXPS_public/genXPS/data/experimental_data/Nylon 6 (N6)

File: N6.csv
Binding Energy,CPS
700,0
699.4,0
698.8,0
698.2,0
697.6,0
697,0
696.4,0
695.8,0
695.2,0
694.6,0
694,0
693.4,0
692.8,0
692.2,0
691.6,0
691,0
690.4,0
689.8,0
689.2,0
688.6,0
688,0
687.4,0
686.8,0
686.2,0
685.6,0
685,0
684.4,0
683.8,0
683.2,0
682.6,0
682,0
539.5,0
538.9,0
538.3,0
537.7,0
537.1,0
536.5,0
535.9,0
535.3,0
534.7,0.001182995
534.1,0.002068364
533.5,0.012297
532.9,0.0299505
532.3,0.148976
531.7,0.471137
531.1,0.431195
530.5,0.0718002
529.9,0.002347047
529.3,0.001934398
528.7,0
528.1,0
527.5,0
526.9,0
526.3,0
525.7,0
525.1,0
524.5,0
523.9,0
523.3,0
522.7,0
522.1,0
521.5,0
520.9,0
520.3,0
409.8,0
409.2,0
408.6,0
408,0
407.4,0
406.8,0
406.2,0
405.6,0
405,0
404.4,0
403.8,0
403.2,0
402.6,0.000842022
402,-0.000451388
401.4,0.006655456
400.8,0.0695392
400.2,0.28019
399.6,0.320396
399,0.0722782
398.4,0.005243951
397.8,-0.000278
397.2,0
396.6,0
396,0
395.4,0
394.8,0
394.2,0
393.6,0
393,0
392.4,0
299.9,0
299.3,0
298.7,0
298.1,0
297.5,0
296.9,0
296.3,0
295.7,0
295.1,0
294.5,0
293.9,0
293.3,0
292.7,0
292.1,0
291.5,0
290.9,0
290.3,0
289.7,0.000796457
289.1,0.0175263
288.5,0.144826
287.9,0.224944
287.3,0.0545927
286.7,0.125234
286.1,0.385594
285.5,0.806506
284.9,0.837508
284.3,0.132216
283.7,0.007666377
283.1,0
282.5,0
281.9,0
281.3,0
280.7,0
280.1,0
279.5,0
278.9,0
278.3,0
277.7,0
277.1,0
276.5,0
275.9,0
275.3,0
209.8,0
209.2,0
208.6,0
208,0
207.4,0
206.8,0
206.2,0
205.6,0
205,0
204.4,0
203.8,0
203.2,0
202.6,0
202,0
201.4,0
200.8,0
200.2,0
199.6,0
199,0
198.4,0
197.8,0
197.2,0
196.6,0
196,0
89.5,0
88.9,0
88.3,0
87.7,0
87.1,0
86.5,0
85.9,0
85.3,0
84.7,0
84.1,0
83.5,0
82.9,0
82.3,0
81.7,0
81.1,0
80.5,0
79.9,0
79.3,0
78.7,0
78.1,0
77.5,0
76.9,0
76.3,0
75.7,0
75.1,0
74.5,0
73.9,0
73.3,0
72.7,0
72.1,0
71.5,0
70.9,0
70.3,0
69.7,0
69.1,0
68.5,0
67.9,0
67.3,0
66.7,0
66.1,0
65.5,0
64.9,0
64.3,0
63.7,0
63.1,0
62.5,0
61.9,0
61.3,0
60.7,0
60.1,0
29.6,0.002237656
29,0.007296273
28.4,0.0169273
27.8,0.0307512
27.2,0.0454282
26.6,0.0550006
26,0.0521173
25.4,0.044335
24.8,0.0393394
24.2,0.0412285
23.6,0.044685
23,0.0472
22.4,0.044172
21.8,0.0381002
21.2,0.0265831
20.6,0.0316084
20,0.0510732
19.4,0.0638795
18.8,0.0637752
18.2,0.0586432
17.6,0.0485149
17,0.0472799
16.4,0.0502305
15.8,0.0425929
15.2,0.0517472
14.6,0.0696452
14,0.0768325
13.4,0.07040748
12.8,0.04190331
12.2,0.0174127
11.6,0.0261961
11,0.03696475
10.4,0.0416586
9.8,0.0405696
9.2,0.0367435
8.6,0.03311157
8,0.0324322
7.4,0.03110698
6.8,0.0292068
6.2,0.0247865
5.6,0.0174477
5,0.016827
4.4,0.03886128
3.8,0.0329872
3.2,0.007321849
2.6,0.000398341
2,-0.00022679
1.4,0
0.8,0
0.2,0
-0.4,0
-1,0
-1.6,0
-2.2,0
-2.8,0
-3.4,0
-4,0
-4.6,0
-5,0