Folder: GenXPS_public/genXPS/data/experimental_data/poly(ethylene terephthalate) (PET)

File: PET.csv
Binding Energy,CPS
700,0
699.4,0
698.8,0
698.2,0
697.6,0
697,0
696.4,0
695.8,0
695.2,0
694.6,0
694,0
693.4,0
692.8,0
692.2,0
691.6,0
691,0
690.4,0
689.8,0
689.2,0
688.6,0
688,0
687.4,0
686.8,0
686.2,0
685.6,0
685,0
684.4,0
683.8,0
683.2,0
682.6,0
682,0
539.5,0.0128948
538.9,0.0130927
538.3,0.0311757
537.7,0.0242191
537.1,0.006649289
536.5,0.000134095
535.9,0.0160134
535.3,0.0373277
534.7,0.08336
534.1,0.345962
533.5,0.880481
532.9,0.886047
532.3,0.655774
531.7,0.955528
531.1,0.514828
530.5,0
529.9,0
529.3,0
528.7,0
528.1,0
527.5,0
526.9,0
526.3,0
525.7,0
525.1,0
524.5,0
523.9,0
523.3,0
522.7,0
522.1,0
521.5,0
520.9,0
520.3,0
409.8,0
409.2,0
408.6,0
408,0
407.4,0
406.8,0
406.2,0
405.6,0
405,0
404.4,0
403.8,0
403.2,0
402.6,0
402,0
401.4,0
400.8,0
400.2,0
399.6,0
399,0
398.4,0
397.8,0
397.2,0
396.6,0
396,0
395.4,0
394.8,0
394.2,0
393.6,0
393,0
392.4,0
299.9,0
299.3,0
298.7,0
298.1,0
297.5,0
296.9,0
296.3,0
295.7,0
295.1,0
294.5,0
293.9,0
293.3,0.003391692
292.7,0.006383786
292.1,0.0161295
291.5,0.0299754
290.9,0.0310352
290.3,0.0180696
289.7,0
289.1,0
288.5,0
287.9,0
287.3,0
286.7,0
286.1,0
285.5,0
284.9,0
284.3,0
283.7,0
283.1,0
282.5,0
281.9,0
281.3,0
280.7,0
280.1,0
279.5,0
278.9,0
278.3,0
277.7,0
277.1,0
276.5,0
275.9,0
275.3,0
209.8,0
209.2,0
208.6,0
208,0
207.4,0
206.8,0
206.2,0
205.6,0
205,0
204.4,0
203.8,0
203.2,0
202.6,0
202,0
201.4,0
200.8,0
200.2,0
199.6,0
199,0
198.4,0
197.8,0
197.2,0
196.6,0
196,0
89.5,0
88.9,0
88.3,0
87.7,0
87.1,0
86.5,0
85.9,0
85.3,0
84.7,0
84.1,0
83.5,0
82.9,0
82.3,0
81.7,0
81.1,0
80.5,0
79.9,0
79.3,0
78.7,0
78.1,0
77.5,0
76.9,0
76.3,0
75.7,0
75.1,0
74.5,0
73.9,0
73.3,0
72.7,0
72.1,0
71.5,0
70.9,0
70.3,0
69.7,0
69.1,0
68.5,0
67.9,0
67.3,0
66.7,0
66.1,0
65.5,0
64.9,0
64.3,0
63.7,0
63.1,0
62.5,0
61.9,0
61.3,0
60.7,0
60.1,0
29.6,0.0796732
29,0.121281
28.4,0.147509
27.8,0.162903
27.2,0.164973
26.6,0.176662
26,0.186988
25.4,0.176596
24.8,0.142449
24.2,0.100796
23.6,0.0666209
23,0.0469207
22.4,0.0362806
21.8,0.0325467
21.2,0.0388872
20.6,0.0507894
20,0.0583236
19.4,0.0644265
18.8,0.0832745
18.2,0.09294618
17.6,0.09487773
17,0.0895288
16.4,0.0768592
15.8,0.0696499
15.2,0.0664966
14.6,0.0747833
14,0.0999865
13.4,0.122284
12.8,0.115624
12.2,0.0891581
11.6,0.0658288
11,0.0878227
10.4,0.140321
9.8,0.137507
9.2,0.0980314
8.6,0.0716618
8,0.0570001
7.4,0.0626569
6.8,0.07515565
6.2,0.0609455
5.6,0.0569459
5,0.0843501
4.4,0.0822333
3.8,0.0352621
3.2,0.0123407
2.6,0.001278868
2,0
1.4,0
0.8,0
0.2,0
-0.4,0
-1,0
-1.6,0
-2.2,0
-2.8,0
-3.4,0
-4,0
-4.6,0
-5,0